Folder: checkAIF/examples

Note: README.md
# checkAIF
Software Library to Perform Integrity and Validity Tests of AIF Files

File: NK_DUT_Error1.aif
data_raw2aif
_exptl_operator 'Nicole'
_exptl_date 2009-09-17T19:56:00
_exptl_instrument 'Autosorb Station 1'
_exptl_adsorptive Nitrogen
_exptl_temperature Error
_adsnt_sample_mass 0.0339
_adsnt_sample_id 'nk_DUT-6_LP_N2_114pkt'
_adsnt_material_id 'DUT-6'
_units_temperature K
_units_pressure Pa
_units_mass g
_units_loading mmol/g
_audit_aif_version d546195
_exptl_isotherm_type b
_exptl_p0 10.0
_adsnt_sample_density 10.0
_adsnt_degas_summary e
_adsnt_degas_temperature 10.0
_adsnt_degas_time 10.0
_units_density i
_units_time j
_units_composition_type k
_exptl_method l
_simltn_forcefield_adsorptive m

loop_
_adsorp_pressure
_adsorp_p0
_adsorp_amount
0.269367 101861 0.00648431
0.272758 101861 0.00821758
0.273486 101861 0.00992848
0.276647 101861 0.0116591
0.279902 101861 0.0288352
0.293935 101861 0.0351563
0.315123 101861 0.0421434
0.316454 101861 0.0472458
0.322316 101861 0.0489422
0.325967 101861 0.05064
0.332183 101861 0.0523377
0.333315 101861 0.0540354
0.338091 101861 0.0557345
0.343809 101861 0.0574257
0.347573 101861 0.0591208
0.354134 101861 0.0608185
0.42206 101861 0.072883
0.525049 101861 0.0890167
0.650668 101861 0.113538
0.814631 101861 0.145624
1.02674 101861 0.207948
1.28823 101861 0.252096
1.61685 101861 0.320235
2.03221 101861 0.404314
2.56455 101861 0.513026
3.22762 101861 0.633505
4.05685 101861 0.775377
5.12407 101861 0.948337
7.05511 101861 1.21705
8.65885 101861 1.42542
9.72756 101861 1.54732
12.418 101861 1.83733
15.7255 101861 2.13916
19.8822 101861 2.45245
25.1223 101861 2.77349
31.8787 101861 3.10751
40.6613 101861 3.45725
51.0434 101861 3.79067
64.7468 101861 4.15361
80.6141 101861 4.51098
101.765 101861 5.0111
128.169 101861 5.4973
162.136 101861 6.10563
204.247 101861 6.81509
255.95 101861 7.70508
322.148 101861 8.81775
407.032 101861 10.2611
510.781 101861 12.1373
646.81 101861 14.7325
813.611 101861 18.2658
820.565 101861 18.4341
833.537 101861 18.7309
1052.55 101861 24.0605
1490.46 101861 29.4815
2065.18 101861 32.4471
2959.13 101861 35.0295
4053.44 101861 37.3031
5227.78 101861 39.409
6461.23 101861 41.5731
7561.81 101861 43.96
7915.02 101861 45.0609
10135.8 101861 51.9077
12857.1 101861 53.396
15287.3 101861 54.0172
18044 101861 54.5238
20803.6 101861 54.9191
25597.1 101861 55.4426
30844.7 101861 55.8802
36096.6 101861 56.2242
41302.7 101861 56.5016
46463.7 101861 56.7339
51603.6 101861 56.9324
56737.5 101861 57.1055
61848.7 101861 57.2542
66975.2 101861 57.3851
72095.4 101861 57.5023
77192.2 101861 57.6087
82298.3 101861 57.6985
87379.6 101861 57.7824
92476.9 101861 57.8572
97575.9 101861 57.9269
100285 101861 57.9664